{
    "resourceType": "Bundle",
    "id": "0f64c834-23b9-413f-a5e1-f8e6802cb691",
    "meta": {
        "profile": [
            "http://nphies.sa/fhir/ksa/nphies-fs/StructureDefinition/bundle|1.0.0"
        ]
    },
    "type": "message",
    "timestamp": "2024-07-31T13:38:00+03:00",
    "entry": [
        {
            "fullUrl": "http://provider.com/MessageHeader/b7ab9574-ca81-49a8-879e-32d1433b9e91",
            "resource": {
                "resourceType": "MessageHeader",
                "id": "b7ab9574-ca81-49a8-879e-32d1433b9e91",
                "meta": {
                    "profile": [
                        "http://nphies.sa/fhir/ksa/nphies-fs/StructureDefinition/message-header|1.0.0"
                    ]
                },
                "eventCoding": {
                    "system": "http://nphies.sa/terminology/CodeSystem/ksa-message-events",
                    "code": "claim-request"
                },
                "destination": [
                    {
                        "endpoint": "http://pseudo-payer.com.sa",
                        "receiver": {
                            "type": "Organization",
                            "identifier": {
                                "system": "http://nphies.sa/license/payer-license",
                                "value": "INS-FHIR"
                            }
                        }
                    }
                ],
                "sender": {
                    "type": "Organization",
                    "identifier": {
                        "system": "http://nphies.sa/license/provider-license",
                        "value": "PR-FHIR"
                    }
                },
                "source": {
                    "endpoint": "http://provider.com"
                },
                "focus": [
                    {
                        "reference": "http://provider.com/Claim/1"
                    }
                ]
            }
        },
        {
            "fullUrl": "http://provider.com/Claim/1",
            "resource": {
                "resourceType": "Claim",
                "id": "1",
                "meta": {
                    "profile": [
                        "http://nphies.sa/fhir/ksa/nphies-fs/StructureDefinition/institutional-claim|1.0.0"
                    ]
                },
                "extension": [
                    {
                        "url": "http://nphies.sa/fhir/ksa/nphies-fs/StructureDefinition/extension-priorauth-response",
                        "valueReference": {
                            "identifier": {
                                "system": "http://pseudo-payer.com.sa/claimresponse",
                                "value": "97de4226-fb3d-4a03-91b9-3a635b977575"
                            }
                        }
                    },
                    {
                        "url": "http://nphies.sa/fhir/ksa/nphies-fs/StructureDefinition/extension-episode",
                        "valueIdentifier": {
                            "system": "http://provider.com/episode",
                            "value": "EpisodeID-209-0120"
                        }
                    },
                    {
                        "url": "http://nphies.sa/fhir/ksa/nphies-fs/StructureDefinition/extension-encounter",
                        "valueReference": {
                            "reference": "http://provider.com/Encounter/1"
                        }
                    },
                    {
                        "url": "http://nphies.sa/fhir/ksa/nphies-fs/StructureDefinition/extension-accountingPeriod",
                        "valueDate": "2024-07-01"
                    }
                ],
                "identifier": [
                    {
                        "system": "http://provider.com/claim",
                        "value": "9648871196291"
                    }
                ],
                "status": "active",
                "type": {
                    "coding": [
                        {
                            "system": "http://terminology.hl7.org/CodeSystem/claim-type",
                            "code": "institutional"
                        }
                    ]
                },
                "subType": {
                    "coding": [
                        {
                            "system": "http://nphies.sa/terminology/CodeSystem/claim-subtype",
                            "code": "ip"
                        }
                    ]
                },
                "use": "claim",
                "patient": {
                    "reference": "Patient/433434"
                },
                "created": "2024-07-31",
                "insurer": {
                    "reference": "http://provider.com/Organization/3"
                },
                "provider": {
                    "reference": "http://provider.com/Organization/4"
                },
                "priority": {
                    "coding": [
                        {
                            "system": "http://terminology.hl7.org/CodeSystem/processpriority",
                            "code": "normal"
                        }
                    ]
                },
                "payee": {
                    "type": {
                        "coding": [
                            {
                                "system": "http://terminology.hl7.org/CodeSystem/payeetype",
                                "code": "provider"
                            }
                        ]
                    }
                },
                "careTeam": [
                    {
                        "sequence": 1,
                        "provider": {
                            "reference": "http://provider.com/Practitioner/70"
                        },
                        "role": {
                            "coding": [
                                {
                                    "system": "http://terminology.hl7.org/CodeSystem/claimcareteamrole",
                                    "code": "primary"
                                }
                            ]
                        },
                        "qualification": {
                            "coding": [
                                {
                                    "system": "http://nphies.sa/terminology/CodeSystem/practice-codes",
                                    "code": "08.11",
                                    "display": "Oncology"
                                }
                            ]
                        }
                    }
                ],
                "supportingInfo": [
                    {
                        "sequence": 1,
                        "category": {
                            "coding": [
                                {
                                    "system": "http://nphies.sa/terminology/CodeSystem/claim-information-category",
                                    "code": "vital-sign-systolic"
                                }
                            ]
                        },
                        "valueQuantity": {
                            "value": 120,
                            "system": "http://unitsofmeasure.org",
                            "code": "mm[Hg]"
                        }
                    },
                    {
                        "sequence": 2,
                        "category": {
                            "coding": [
                                {
                                    "system": "http://nphies.sa/terminology/CodeSystem/claim-information-category",
                                    "code": "vital-sign-diastolic"
                                }
                            ]
                        },
                        "valueQuantity": {
                            "value": 80,
                            "system": "http://unitsofmeasure.org",
                            "code": "mm[Hg]"
                        }
                    },
                    {
                        "sequence": 3,
                        "category": {
                            "coding": [
                                {
                                    "system": "http://nphies.sa/terminology/CodeSystem/claim-information-category",
                                    "code": "vital-sign-height"
                                }
                            ]
                        },
                        "valueQuantity": {
                            "value": 160,
                            "system": "http://unitsofmeasure.org",
                            "code": "cm"
                        }
                    },
                    {
                        "sequence": 4,
                        "category": {
                            "coding": [
                                {
                                    "system": "http://nphies.sa/terminology/CodeSystem/claim-information-category",
                                    "code": "vital-sign-weight"
                                }
                            ]
                        },
                        "valueQuantity": {
                            "value": 129,
                            "system": "http://unitsofmeasure.org",
                            "code": "kg"
                        }
                    },
                    {
                        "sequence": 5,
                        "category": {
                            "coding": [
                                {
                                    "system": "http://nphies.sa/terminology/CodeSystem/claim-information-category",
                                    "code": "pulse"
                                }
                            ]
                        },
                        "valueQuantity": {
                            "value": 100,
                            "system": "http://unitsofmeasure.org",
                            "code": "/min"
                        }
                    },
                    {
                        "sequence": 6,
                        "category": {
                            "coding": [
                                {
                                    "system": "http://nphies.sa/terminology/CodeSystem/claim-information-category",
                                    "code": "temperature"
                                }
                            ]
                        },
                        "valueQuantity": {
                            "value": 37.5,
                            "system": "http://unitsofmeasure.org",
                            "code": "Cel"
                        }
                    },
                    {
                        "sequence": 7,
                        "category": {
                            "coding": [
                                {
                                    "system": "http://nphies.sa/terminology/CodeSystem/claim-information-category",
                                    "code": "chief-complaint"
                                }
                            ]
                        },
                        "code": {
                            "text": "Carcinoma of endocrine pancreas"
                        }
                    },
                    {
                        "sequence": 8,
                        "category": {
                            "coding": [
                                {
                                    "system": "http://nphies.sa/terminology/CodeSystem/claim-information-category",
                                    "code": "oxygen-saturation"
                                }
                            ]
                        },
                        "valueQuantity": {
                            "value": 100,
                            "system": "http://unitsofmeasure.org",
                            "code": "%"
                        }
                    },
                    {
                        "sequence": 9,
                        "category": {
                            "coding": [
                                {
                                    "system": "http://nphies.sa/terminology/CodeSystem/claim-information-category",
                                    "code": "respiratory-rate"
                                }
                            ]
                        },
                        "valueQuantity": {
                            "value": 12,
                            "system": "http://unitsofmeasure.org",
                            "code": "/min"
                        }
                    },
                    {
                        "sequence": 11,
                        "category": {
                            "coding": [
                                {
                                    "system": "http://nphies.sa/terminology/CodeSystem/claim-information-category",
                                    "code": "estimated-Length-of-Stay"
                                }
                            ]
                        },
                        "valueQuantity": {
                            "value": 30,
                            "system": "http://unitsofmeasure.org",
                            "code": "d"
                        }
                    },
                    {
                        "sequence": 12,
                        "category": {
                            "coding": [
                                {
                                    "system": "http://nphies.sa/terminology/CodeSystem/claim-information-category",
                                    "code": "patient-history"
                                }
                            ]
                        },
                        "valueString": "pancreatic cancer stage 1"
                    },
                    {
                        "sequence": 13,
                        "category": {
                            "coding": [
                                {
                                    "system": "http://nphies.sa/terminology/CodeSystem/claim-information-category",
                                    "code": "investigation-result"
                                }
                            ]
                        },
                        "code": {
                            "coding": [
                                {
                                    "system": "http://nphies.sa/terminology/CodeSystem/investigation-result",
                                    "code": "INP"
                                }
                            ]
                        }
                    },
                    {
                        "sequence": 14,
                        "category": {
                            "coding": [
                                {
                                    "system": "http://nphies.sa/terminology/CodeSystem/claim-information-category",
                                    "code": "treatment-plan"
                                }
                            ]
                        },
                        "valueString": "Surgical excision of lesion of pancreas"
                    },
                    {
                        "sequence": 15,
                        "category": {
                            "coding": [
                                {
                                    "system": "http://nphies.sa/terminology/CodeSystem/claim-information-category",
                                    "code": "physical-examination"
                                }
                            ]
                        },
                        "valueString": "Stable"
                    },
                    {
                        "sequence": 16,
                        "category": {
                            "coding": [
                                {
                                    "system": "http://nphies.sa/terminology/CodeSystem/claim-information-category",
                                    "code": "history-of-present-illness"
                                }
                            ]
                        },
                        "valueString": "adenocarcinoma of pancreas diagnosed one year ago"
                    },
                    {
                        "sequence": 17,
                        "category": {
                            "coding": [
                                {
                                    "system": "http://nphies.sa/terminology/CodeSystem/claim-information-category",
                                    "code": "morphology"
                                }
                            ]
                        },
                        "code": {
                            "coding": [
                                {
                                    "system": "http://nphies.sa/terminology/CodeSystem/morphology-code",
                                    "code": "M8002/3",
                                    "display": "Malignant tumour, small cell type"
                                }
                            ]
                        }
                    }
                ],
                "diagnosis": [
                    {
                        "extension": [
                            {
                                "url": "http://nphies.sa/fhir/ksa/nphies-fs/StructureDefinition/extension-condition-onset",
                                "valueCodeableConcept": {
                                    "coding": [
                                        {
                                            "system": "http://nphies.sa/terminology/CodeSystem/condition-onset",
                                            "code": "NR"
                                        }
                                    ]
                                }
                            }
                        ],
                        "sequence": 1,
                        "diagnosisCodeableConcept": {
                            "coding": [
                                {
                                    "system": "http://hl7.org/fhir/sid/icd-10-am",
                                    "code": "C25.4",
                                    "display": "Malignant neoplasm of endocrine pancreas"
                                }
                            ]
                        },
                        "type": [
                            {
                                "coding": [
                                    {
                                        "system": "http://nphies.sa/terminology/CodeSystem/diagnosis-type",
                                        "code": "principal"
                                    }
                                ]
                            }
                        ],
                        "onAdmission": {
                            "coding": [
                                {
                                    "system": "http://nphies.sa/terminology/CodeSystem/diagnosis-on-admission",
                                    "code": "y"
                                }
                            ]
                        }
                    }
                ],
                "insurance": [
                    {
                        "sequence": 1,
                        "focal": true,
                        "coverage": {
                            "reference": "http://provider.com/Coverage/41"
                        },
                        "preAuthRef": [
                            "Globemed_Auth_number"
                        ]
                    }
                ],
                "item": [
                    {
                        "extension": [
                            {
                                "url": "http://nphies.sa/fhir/ksa/nphies-fs/StructureDefinition/extension-package",
                                "valueBoolean": false
                            },
                            {
                                "url": "http://nphies.sa/fhir/ksa/nphies-fs/StructureDefinition/extension-patient-share",
                                "valueMoney": {
                                    "value": 0,
                                    "currency": "SAR"
                                }
                            },
                            {
                                "url": "http://nphies.sa/fhir/ksa/nphies-fs/StructureDefinition/extension-patientInvoice",
                                "valueIdentifier": {
                                    "system": "http://provider.com/patientInvoice",
                                    "value": "Invc-20220120-90408"
                                }
                            },
                            {
                                "url": "http://nphies.sa/fhir/ksa/nphies-fs/StructureDefinition/extension-maternity",
                                "valueBoolean": false
                            }
                        ],
                        "sequence": 1,
                        "careTeamSequence": [
                            1
                        ],
                        "productOrService": {
                            "coding": [
                                {
                                    "system": "http://nphies.sa/terminology/CodeSystem/moh-category",
                                    "code": "191-52.80",
                                    "display": "Operation, pancreas"
                                }
                            ]
                        },
                        "servicedPeriod": {
                            "start": "2024-07-01",
                            "end": "2024-07-31"
                        },
                        "quantity": {
                            "value": 1
                        },
                        "unitPrice": {
                            "value": 500,
                            "currency": "SAR"
                        },
                        "net": {
                            "value": 500,
                            "currency": "SAR"
                        }
                    },
                    {
                        "extension": [
                            {
                                "url": "http://nphies.sa/fhir/ksa/nphies-fs/StructureDefinition/extension-package",
                                "valueBoolean": false
                            },
                            {
                                "url": "http://nphies.sa/fhir/ksa/nphies-fs/StructureDefinition/extension-patient-share",
                                "valueMoney": {
                                    "value": 0,
                                    "currency": "SAR"
                                }
                            },
                            {
                                "url": "http://nphies.sa/fhir/ksa/nphies-fs/StructureDefinition/extension-patientInvoice",
                                "valueIdentifier": {
                                    "system": "http://provider.com/patientInvoice",
                                    "value": "Invc-20220120-90408"
                                }
                            },
                            {
                                "url": "http://nphies.sa/fhir/ksa/nphies-fs/StructureDefinition/extension-maternity",
                                "valueBoolean": false
                            }
                        ],
                        "sequence": 2,
                        "careTeamSequence": [
                            1
                        ],
                        "productOrService": {
                            "coding": [
                                {
                                    "system": "http://nphies.sa/terminology/CodeSystem/moh-category",
                                    "code": "Q1000",
                                    "display": "Room and board package, Hospital facility, Adult and Pediatrics* Medication above 350 SR per day as per SFDA price list, Blood & blood products, MRI, CT, ECHO, Doppler , CRRT , Surgical and endoscopic procedure are  an excluded services.To get re-imbused for medication above the daily limit, submission must include a list of details medications as per SFDA codes and pricelist"
                                }
                            ]
                        },
                        "servicedPeriod": {
                            "start": "2024-07-01",
                            "end": "2024-07-31"
                        },
                        "quantity": {
                            "value": 1
                        },
                        "unitPrice": {
                            "value": 500,
                            "currency": "SAR"
                        },
                        "net": {
                            "value": 500,
                            "currency": "SAR"
                        }
                    }
                ],
                "total": {
                    "value": 1000,
                    "currency": "SAR"
                }
            }
        },
        {
            "fullUrl": "http://provider.com/Organization/4",
            "resource": {
                "resourceType": "Organization",
                "id": "4",
                "meta": {
                    "profile": [
                        "http://nphies.sa/fhir/ksa/nphies-fs/StructureDefinition/provider-organization|1.0.0"
                    ]
                },
                "extension": [
                    {
                        "url": "http://nphies.sa/fhir/ksa/nphies-fs/StructureDefinition/extension-provider-type",
                        "valueCodeableConcept": {
                            "coding": [
                                {
                                    "system": "http://nphies.sa/terminology/CodeSystem/provider-type",
                                    "code": "1",
                                    "display": "Hospital"
                                }
                            ]
                        }
                    }
                ],
                "identifier": [
                    {
                        "system": "http://nphies.sa/license/provider-license",
                        "value": "PR-FHIR"
                    }
                ],
                "active": true,
                "type": [
                    {
                        "coding": [
                            {
                                "system": "http://nphies.sa/terminology/CodeSystem/organization-type",
                                "code": "prov"
                            }
                        ]
                    }
                ],
                "name": "Test Provider"
            }
        },
        {
            "fullUrl": "http://provider.com/Patient/433434",
            "resource": {
                "resourceType": "Patient",
                "id": "433434",
                "meta": {
                    "profile": [
                        "http://nphies.sa/fhir/ksa/nphies-fs/StructureDefinition/patient|1.0.0"
                    ]
                },
                "extension": [
                    {
                        "url": "http://nphies.sa/fhir/ksa/nphies-fs/StructureDefinition/extension-nationality",
                        "valueCodeableConcept": {
                            "coding": [
                                {
                                    "system": "urn:iso:std:iso:3166",
                                    "code": "SAU",
                                    "display": "Saudi Arabia"
                                }
                            ]
                        }
                    },
                    {
                        "url": "http://nphies.sa/fhir/ksa/nphies-fs/StructureDefinition/extension-occupation",
                        "valueCodeableConcept": {
                            "coding": [
                                {
                                    "system": "http://nphies.sa/terminology/CodeSystem/occupation",
                                    "code": "student"
                                }
                            ]
                        }
                    }
                ],
                "identifier": [
                    {
                        "type": {
                            "coding": [
                                {
                                    "system": "http://terminology.hl7.org/CodeSystem/v2-0203",
                                    "code": "NI"
                                }
                            ]
                        },
                        "system": "http://nphies.sa/identifier/nationalid",
                        "value": "1787862623"
                    }
                ],
                "active": true,
                "name": [
                    {
                        "use": "official",
                        "text": "Abdullah Omer Alenazi",
                        "family": "Alenazi",
                        "given": [
                            "Abdullah",
                            "Omer",
                            "Alenazi"
                        ]
                    }
                ],
                "telecom": [
                    {
                        "system": "phone",
                        "value": "00966527898191"
                    }
                ],
                "gender": "male",
                "_gender": {
                    "extension": [
                        {
                            "url": "http://nphies.sa/fhir/ksa/nphies-fs/StructureDefinition/extension-ksa-administrative-gender",
                            "valueCodeableConcept": {
                                "coding": [
                                    {
                                        "system": "http://nphies.sa/terminology/CodeSystem/ksa-administrative-gender",
                                        "code": "male"
                                    }
                                ]
                            }
                        }
                    ]
                },
                "birthDate": "2000-10-12",
                "maritalStatus": {
                    "coding": [
                        {
                            "system": "http://terminology.hl7.org/CodeSystem/v3-MaritalStatus",
                            "code": "U"
                        }
                    ]
                }
            }
        },
        {
            "fullUrl": "http://provider.com/Organization/3",
            "resource": {
                "resourceType": "Organization",
                "id": "3",
                "meta": {
                    "profile": [
                        "http://nphies.sa/fhir/ksa/nphies-fs/StructureDefinition/insurer-organization|1.0.0"
                    ]
                },
                "identifier": [
                    {
                        "system": "http://nphies.sa/license/payer-license",
                        "value": "0000000163"
                    }
                ],
                "active": true,
                "type": [
                    {
                        "coding": [
                            {
                                "system": "http://nphies.sa/terminology/CodeSystem/organization-type",
                                "code": "ins"
                            }
                        ]
                    }
                ],
                "name": "Center for National health insurance"
            }
        },
        {
            "fullUrl": "http://provider.com/Coverage/41",
            "resource": {
                "resourceType": "Coverage",
                "id": "41",
                "meta": {
                    "profile": [
                        "http://nphies.sa/fhir/ksa/nphies-fs/StructureDefinition/coverage|1.0.0"
                    ]
                },
                "identifier": [
                    {
                        "system": "http://pseudo-payer.com.sa/memberid",
                        "value": "43344334"
                    }
                ],
                "status": "active",
                "type": {
                    "coding": [
                        {
                            "system": "http://nphies.sa/terminology/CodeSystem/coverage-type",
                            "code": "PUBLICPOL",
                            "display": "public healthcare"
                        }
                    ]
                },
                "policyHolder": {
                    "reference": "http://provider.com/Organization/13"
                },
                "subscriber": {
                    "reference": "http://provider.com/Patient/433434"
                },
                "subscriberId": "43344334",
                "beneficiary": {
                    "reference": "http://provider.com/Patient/433434"
                },
                "relationship": {
                    "coding": [
                        {
                            "system": "http://terminology.hl7.org/CodeSystem/subscriber-relationship",
                            "code": "self",
                            "display": "Self"
                        }
                    ]
                },
                "payor": [
                    {
                        "reference": "http://provider.com/Organization/3"
                    }
                ],
                "class": [
                    {
                        "type": {
                            "coding": [
                                {
                                    "system": "http://terminology.hl7.org/CodeSystem/coverage-class",
                                    "code": "plan"
                                }
                            ]
                        },
                        "value": "135678597",
                        "name": "Insurance Plan A"
                    }
                ]
            }
        },
        {
            "fullUrl": "http://provider.com/Organization/13",
            "resource": {
                "resourceType": "Organization",
                "id": "13",
                "meta": {
                    "profile": [
                        "http://nphies.sa/fhir/ksa/nphies-fs/StructureDefinition/policyholder-organization|1.0.0"
                    ]
                },
                "identifier": [
                    {
                        "system": "http://nphies.sa/identifier/organization",
                        "value": "0000000163"
                    }
                ],
                "active": true,
                "name": "Center for National health insurance"
            }
        },
        {
            "fullUrl": "http://provider.com/Encounter/1",
            "resource": {
                "resourceType": "Encounter",
                "id": "1",
                "meta": {
                    "profile": [
                        "http://nphies.sa/fhir/ksa/nphies-fs/StructureDefinition/encounter|1.0.0"
                    ]
                },
                "extension": [
                    {
                        "url": "http://nphies.sa/fhir/ksa/nphies-fs/StructureDefinition/extension-serviceEventType",
                        "valueCodeableConcept": {
                            "coding": [
                                {
                                    "system": "http://nphies.sa/terminology/CodeSystem/service-event-type",
                                    "code": "ICSE"
                                }
                            ]
                        }
                    }
                ],
                "identifier": [
                    {
                        "system": "http://provider.com/encounter",
                        "value": "Encounter1"
                    }
                ],
                "status": "finished",
                "class": {
                    "system": "http://terminology.hl7.org/CodeSystem/v3-ActCode",
                    "code": "IMP",
                    "display": "inpatient"
                },
                "serviceType": {
                    "coding": [
                        {
                            "system": "http://nphies.sa/terminology/CodeSystem/service-type",
                            "code": "sub-acute-care"
                        }
                    ]
                },
                "subject": {
                    "reference": "http://provider.com/Patient/433434"
                },
                "period": {
                    "start": "2024-07-01T10:38:00+03:00",
                    "end": "2024-07-31T12:38:00+03:00"
                },
                "hospitalization": {
                    "extension": [
                        {
                            "url": "http://nphies.sa/fhir/ksa/nphies-fs/StructureDefinition/extension-admissionSpecialty",
                            "valueCodeableConcept": {
                                "coding": [
                                    {
                                        "system": "http://nphies.sa/terminology/CodeSystem/practice-codes",
                                        "code": "08.11",
                                        "display": "Oncology"
                                    }
                                ]
                            }
                        },
                        {
                            "url": "http://nphies.sa/fhir/ksa/nphies-fs/StructureDefinition/extension-dischargeSpecialty",
                            "valueCodeableConcept": {
                                "coding": [
                                    {
                                        "system": "http://nphies.sa/terminology/CodeSystem/practice-codes",
                                        "code": "08.11",
                                        "display": "Oncology"
                                    }
                                ]
                            }
                        },
                        {
                            "url": "http://nphies.sa/fhir/ksa/nphies-fs/StructureDefinition/extension-intendedLengthOfStay",
                            "valueCodeableConcept": {
                                "coding": [
                                    {
                                        "system": "http://nphies.sa/terminology/CodeSystem/intended-length-of-stay",
                                        "code": "IO",
                                        "display": "Intended overnight"
                                    }
                                ]
                            }
                        }
                    ],
                    "origin": {
                        "reference": "http://provider.com/Organization/4"
                    },
                    "admitSource": {
                        "coding": [
                            {
                                "system": "http://nphies.sa/terminology/CodeSystem/admit-source",
                                "code": "AA"
                            }
                        ]
                    },
                    "dischargeDisposition": {
                        "coding": [
                            {
                                "system": "http://nphies.sa/terminology/CodeSystem/discharge-disposition",
                                "code": "in-hospital",
                                "display": "Patient still in hospital"
                            }
                        ]
                    }
                },
                "serviceProvider": {
                    "reference": "http://provider.com/Organization/4"
                }
            }
        },
        {
            "fullUrl": "http://provider.com/Practitioner/70",
            "resource": {
                "resourceType": "Practitioner",
                "id": "70",
                "meta": {
                    "profile": [
                        "http://nphies.sa/fhir/ksa/nphies-fs/StructureDefinition/practitioner|1.0.0"
                    ]
                },
                "identifier": [
                    {
                        "type": {
                            "coding": [
                                {
                                    "system": "http://terminology.hl7.org/CodeSystem/v2-0203",
                                    "code": "MD"
                                }
                            ]
                        },
                        "system": "http://nphies.sa/license/practitioner-license",
                        "value": "MDH-5700"
                    }
                ],
                "active": true,
                "name": [
                    {
                        "use": "official",
                        "text": "Omer Mohammed Al Tamimi",
                        "family": "Al Tamimi",
                        "given": [
                            "Omer",
                            "Mohammed"
                        ]
                    }
                ],
                "gender": "male"
            }
        }
    ]
}