{"resourceType":"Bundle","id":"a8835c62-bca7-4190-8dfe-48287560cf3f","meta":{"profile":["http://nphies.sa/fhir/ksa/nphies-fs/StructureDefinition/bundle|1.0.0"]},"type":"message","timestamp":"2024-10-17T08:37:49.077+00:00","entry":[{"fullUrl":"http://pseudo-payer.com.sa/MessageHeader/220cf7c7-1384-4c45-a5db-32299f70bb0f","resource":{"resourceType":"MessageHeader","id":"220cf7c7-1384-4c45-a5db-32299f70bb0f","meta":{"profile":["http://nphies.sa/fhir/ksa/nphies-fs/StructureDefinition/message-header|1.0.0"]},"eventCoding":{"system":"http://nphies.sa/terminology/CodeSystem/ksa-message-events","code":"priorauth-response"},"destination":[{"endpoint":"http://provider.com","receiver":{"type":"Organization","identifier":{"system":"http://nphies.sa/license/provider-license","value":"PR-FHIR"}}}],"sender":{"type":"Organization","identifier":{"system":"http://nphies.sa/license/payer-license","value":"INS-FHIR"}},"source":{"endpoint":"http://payer.com"},"response":{"identifier":"e817413f-e25c-4d2a-a019-baab7922e879","code":"ok"},"focus":[{"reference":"http://pseudo-payer.com.sa/ClaimResponse/1"}]}},{"fullUrl":"http://pseudo-payer.com.sa/ClaimResponse/1","resource":{"resourceType":"ClaimResponse","id":"1","meta":{"profile":["http://nphies.sa/fhir/ksa/nphies-fs/StructureDefinition/prior-auth-response|1.0.0"]},"extension":[{"url":"http://nphies.sa/fhir/ksa/nphies-fs/StructureDefinition/extension-adjudication-outcome","valueCodeableConcept":{"coding":[{"system":"http://nphies.sa/terminology/CodeSystem/adjudication-outcome","code":"approved"}]}}],"identifier":[{"system":"http://pseudo-payer.com.sa/claimresponse","value":"4dcb3603-51ca-4f5d-9423-6d9cd5cb1314"}],"status":"active","type":{"coding":[{"system":"http://terminology.hl7.org/CodeSystem/claim-type","code":"professional"}]},"subType":{"coding":[{"system":"http://nphies.sa/terminology/CodeSystem/claim-subtype","code":"emr"}]},"use":"preauthorization","patient":{"reference":"http://provider.com/Patient/433434"},"created":"2024-10-17","insurer":{"reference":"http://provider.com/Organization/3"},"requestor":{"reference":"http://provider.com/Organization/4"},"request":{"type":"Claim","identifier":{"system":"http://provider.com/preauthorization","value":"34616669"}},"outcome":"complete","preAuthRef":"819c192a-6e25-4449-b269-e530053fe61a","preAuthPeriod":{"start":"2024-10-17","end":"2024-10-22"},"item":[{"extension":[{"url":"http://nphies.sa/fhir/ksa/nphies-fs/StructureDefinition/extension-adjudication-outcome","valueCodeableConcept":{"coding":[{"system":"http://nphies.sa/terminology/CodeSystem/adjudication-outcome","code":"approved"}]}}],"itemSequence":1,"adjudication":[{"category":{"coding":[{"system":"http://terminology.hl7.org/CodeSystem/adjudication","code":"eligible"}]},"amount":{"value":16.5,"currency":"SAR"}},{"category":{"coding":[{"system":"http://terminology.hl7.org/CodeSystem/adjudication","code":"copay"}]},"amount":{"value":0,"currency":"SAR"}},{"category":{"coding":[{"system":"http://terminology.hl7.org/CodeSystem/adjudication","code":"benefit"}]},"amount":{"value":16.5,"currency":"SAR"}},{"category":{"coding":[{"system":"http://nphies.sa/terminology/CodeSystem/ksa-adjudication","code":"approved-quantity"}]},"value":1}]}],"total":[{"category":{"coding":[{"system":"http://terminology.hl7.org/CodeSystem/adjudication","code":"eligible"}]},"amount":{"value":16.5,"currency":"SAR"}},{"category":{"coding":[{"system":"http://terminology.hl7.org/CodeSystem/adjudication","code":"benefit"}]},"amount":{"value":16.5,"currency":"SAR"}},{"category":{"coding":[{"system":"http://terminology.hl7.org/CodeSystem/adjudication","code":"copay"}]},"amount":{"value":0,"currency":"SAR"}}],"insurance":[{"sequence":1,"focal":true,"coverage":{"reference":"http://provider.com/Coverage/41"}}]}},{"fullUrl":"http://provider.com/Patient/433434","resource":{"resourceType":"Patient","id":"433434","meta":{"profile":["http://nphies.sa/fhir/ksa/nphies-fs/StructureDefinition/patient|1.0.0"]},"extension":[{"url":"http://nphies.sa/fhir/ksa/nphies-fs/StructureDefinition/extension-nationality","valueCodeableConcept":{"coding":[{"system":"urn:iso:std:iso:3166","code":"SAU","display":"Saudi Arabia"}]}},{"url":"http://nphies.sa/fhir/ksa/nphies-fs/StructureDefinition/extension-occupation","valueCodeableConcept":{"coding":[{"system":"http://nphies.sa/terminology/CodeSystem/occupation","code":"student"}]}}],"identifier":[{"type":{"coding":[{"system":"http://terminology.hl7.org/CodeSystem/v2-0203","code":"NI"}]},"system":"http://nphies.sa/identifier/nationalid","value":"1787862623"}],"active":true,"name":[{"use":"official","text":"Abdullah Omer Alenazi","family":"Alenazi","given":["Abdullah","Omer","Alenazi"]}],"telecom":[{"system":"phone","value":"00966527898191"}],"gender":"male","_gender":{"extension":[{"url":"http://nphies.sa/fhir/ksa/nphies-fs/StructureDefinition/extension-ksa-administrative-gender","valueCodeableConcept":{"coding":[{"system":"http://nphies.sa/terminology/CodeSystem/ksa-administrative-gender","code":"male"}]}}]},"birthDate":"2000-10-12","maritalStatus":{"coding":[{"system":"http://terminology.hl7.org/CodeSystem/v3-MaritalStatus","code":"U"}]}}},{"fullUrl":"http://provider.com/Organization/4","resource":{"resourceType":"Organization","id":"4","meta":{"profile":["http://nphies.sa/fhir/ksa/nphies-fs/StructureDefinition/provider-organization|1.0.0"]},"extension":[{"url":"http://nphies.sa/fhir/ksa/nphies-fs/StructureDefinition/extension-provider-type","valueCodeableConcept":{"coding":[{"system":"http://nphies.sa/terminology/CodeSystem/provider-type","code":"1","display":"Hospital"}]}}],"identifier":[{"system":"http://nphies.sa/license/provider-license","value":"PR-FHIR"}],"active":true,"type":[{"coding":[{"system":"http://nphies.sa/terminology/CodeSystem/organization-type","code":"prov"}]}],"name":"Test Provider"}},{"fullUrl":"http://provider.com/Organization/3","resource":{"resourceType":"Organization","id":"3","meta":{"profile":["http://nphies.sa/fhir/ksa/nphies-fs/StructureDefinition/insurer-organization|1.0.0"]},"identifier":[{"system":"http://nphies.sa/license/payer-license","value":"INS-FHIR"}],"active":true,"type":[{"coding":[{"system":"http://nphies.sa/terminology/CodeSystem/organization-type","code":"ins"}]}],"name":"Test Payer"}},{"fullUrl":"http://provider.com/Coverage/41","resource":{"resourceType":"Coverage","id":"41","meta":{"profile":["http://nphies.sa/fhir/ksa/nphies-fs/StructureDefinition/coverage|1.0.0"]},"identifier":[{"system":"http://pseudo-payer.com.sa/memberid","value":"43344334"}],"status":"active","type":{"coding":[{"system":"http://nphies.sa/terminology/CodeSystem/coverage-type","code":"PUBLICPOL","display":"public healthcare"}]},"policyHolder":{"reference":"http://provider.com/Patient/433434"},"subscriber":{"reference":"http://provider.com/Patient/433434"},"subscriberId":"43344334","beneficiary":{"reference":"http://provider.com/Patient/433434"},"relationship":{"coding":[{"system":"http://terminology.hl7.org/CodeSystem/subscriber-relationship","code":"self","display":"Self"}]},"period":{"start":"2023-10-12","end":"2024-10-12"},"payor":[{"reference":"http://provider.com/Organization/3"}],"class":[{"type":{"coding":[{"system":"http://terminology.hl7.org/CodeSystem/coverage-class","code":"plan"}]},"value":"135678597","name":"Insurance Plan A"}]}}]}