{"resourceType":"Bundle","id":"d5ae3038-9e54-4cba-aa08-eb786f9d2f83","meta":{"profile":["http://nphies.sa/fhir/ksa/nphies-fs/StructureDefinition/bundle|1.0.0"]},"type":"message","timestamp":"2024-10-17T09:05:34.905+00:00","entry":[{"fullUrl":"http://pseudo-payer.com.sa/MessageHeader/1bd06a34-531f-4e74-afcd-78e20c9384e3","resource":{"resourceType":"MessageHeader","id":"1bd06a34-531f-4e74-afcd-78e20c9384e3","meta":{"profile":["http://nphies.sa/fhir/ksa/nphies-fs/StructureDefinition/message-header|1.0.0"]},"eventCoding":{"system":"http://nphies.sa/terminology/CodeSystem/ksa-message-events","code":"priorauth-response"},"destination":[{"endpoint":"http://provider.com","receiver":{"type":"Organization","identifier":{"system":"http://nphies.sa/license/provider-license","value":"PR-FHIR"}}}],"sender":{"type":"Organization","identifier":{"system":"http://nphies.sa/license/payer-license","value":"INS-FHIR"}},"source":{"endpoint":"http://payer.com"},"response":{"identifier":"e717413f-e23e-4d2a-a019-baab7922e875","code":"ok"},"focus":[{"reference":"http://pseudo-payer.com.sa/ClaimResponse/1"}]}},{"fullUrl":"http://pseudo-payer.com.sa/ClaimResponse/1","resource":{"resourceType":"ClaimResponse","id":"1","meta":{"profile":["http://nphies.sa/fhir/ksa/nphies-fs/StructureDefinition/prior-auth-response|1.0.0"]},"extension":[{"url":"http://nphies.sa/fhir/ksa/nphies-fs/StructureDefinition/extension-adjudication-outcome","valueCodeableConcept":{"coding":[{"system":"http://nphies.sa/terminology/CodeSystem/adjudication-outcome","code":"approved"}]}}],"identifier":[{"system":"http://pseudo-payer.com.sa/claimresponse","value":"7cd3a018-db26-4d5c-8db4-88d12b042d7f"}],"status":"active","type":{"coding":[{"system":"http://terminology.hl7.org/CodeSystem/claim-type","code":"institutional"}]},"subType":{"coding":[{"system":"http://nphies.sa/terminology/CodeSystem/claim-subtype","code":"ip"}]},"use":"preauthorization","patient":{"reference":"http://Provider_BaseURL.com.sa/Patient/433434"},"created":"2024-10-17","insurer":{"reference":"http://Provider_BaseURL.com.sa/Organization/3"},"requestor":{"reference":"http://Provider_BaseURL.com.sa/Organization/4"},"request":{"type":"Claim","identifier":{"system":"http://Provider_BaseURL.com.sa/preauthorization","value":"Auth_545446166631432"}},"outcome":"complete","preAuthRef":"2df9cf73-5a46-41d6-8328-85d196646052","preAuthPeriod":{"start":"2024-10-17","end":"2024-10-22"},"item":[{"extension":[{"url":"http://nphies.sa/fhir/ksa/nphies-fs/StructureDefinition/extension-adjudication-outcome","valueCodeableConcept":{"coding":[{"system":"http://nphies.sa/terminology/CodeSystem/adjudication-outcome","code":"approved"}]}}],"itemSequence":1,"adjudication":[{"category":{"coding":[{"system":"http://terminology.hl7.org/CodeSystem/adjudication","code":"eligible"}]},"amount":{"value":16.5,"currency":"SAR"}},{"category":{"coding":[{"system":"http://terminology.hl7.org/CodeSystem/adjudication","code":"copay"}]},"amount":{"value":0,"currency":"SAR"}},{"category":{"coding":[{"system":"http://terminology.hl7.org/CodeSystem/adjudication","code":"benefit"}]},"amount":{"value":16.5,"currency":"SAR"}},{"category":{"coding":[{"system":"http://nphies.sa/terminology/CodeSystem/ksa-adjudication","code":"approved-quantity"}]},"value":1}]}],"total":[{"category":{"coding":[{"system":"http://terminology.hl7.org/CodeSystem/adjudication","code":"eligible"}]},"amount":{"value":16.5,"currency":"SAR"}},{"category":{"coding":[{"system":"http://terminology.hl7.org/CodeSystem/adjudication","code":"benefit"}]},"amount":{"value":16.5,"currency":"SAR"}},{"category":{"coding":[{"system":"http://terminology.hl7.org/CodeSystem/adjudication","code":"copay"}]},"amount":{"value":0,"currency":"SAR"}}],"insurance":[{"sequence":1,"focal":true,"coverage":{"reference":"http://Provider_BaseURL.com.sa/Coverage/41"}}]}},{"fullUrl":"http://Provider_BaseURL.com.sa/Patient/433434","resource":{"resourceType":"Patient","id":"433434","meta":{"profile":["http://nphies.sa/fhir/ksa/nphies-fs/StructureDefinition/patient|1.0.0"]},"extension":[{"url":"http://nphies.sa/fhir/ksa/nphies-fs/StructureDefinition/extension-nationality","valueCodeableConcept":{"coding":[{"system":"urn:iso:std:iso:3166","code":"SAU","display":"Saudi Arabia"}]}},{"url":"http://nphies.sa/fhir/ksa/nphies-fs/StructureDefinition/extension-occupation","valueCodeableConcept":{"coding":[{"system":"http://nphies.sa/terminology/CodeSystem/occupation","code":"student"}]}}],"identifier":[{"type":{"coding":[{"system":"http://terminology.hl7.org/CodeSystem/v2-0203","code":"NI"}]},"system":"http://nphies.sa/identifier/nationalid","value":"1787862643"}],"active":true,"name":[{"use":"official","text":"Abdullah Omer Alenazi","family":"Alenazi","given":["Abdullah","Omer","Alenazi"]}],"telecom":[{"system":"phone","value":"00966527898191"}],"gender":"male","_gender":{"extension":[{"url":"http://nphies.sa/fhir/ksa/nphies-fs/StructureDefinition/extension-ksa-administrative-gender","valueCodeableConcept":{"coding":[{"system":"http://nphies.sa/terminology/CodeSystem/ksa-administrative-gender","code":"male"}]}}]},"birthDate":"2000-10-12","maritalStatus":{"coding":[{"system":"http://terminology.hl7.org/CodeSystem/v3-MaritalStatus","code":"U"}]}}},{"fullUrl":"http://Provider_BaseURL.com.sa/Organization/4","resource":{"resourceType":"Organization","id":"4","meta":{"profile":["http://nphies.sa/fhir/ksa/nphies-fs/StructureDefinition/provider-organization|1.0.0"]},"extension":[{"url":"http://nphies.sa/fhir/ksa/nphies-fs/StructureDefinition/extension-provider-type","valueCodeableConcept":{"coding":[{"system":"http://nphies.sa/terminology/CodeSystem/provider-type","code":"1","display":"Hospital"}]}}],"identifier":[{"system":"http://nphies.sa/license/provider-license","value":"PR-FHIR"}],"active":true,"type":[{"coding":[{"system":"http://nphies.sa/terminology/CodeSystem/organization-type","code":"prov"}]}],"name":"Test Provider"}},{"fullUrl":"http://Provider_BaseURL.com.sa/Organization/3","resource":{"resourceType":"Organization","id":"3","meta":{"profile":["http://nphies.sa/fhir/ksa/nphies-fs/StructureDefinition/insurer-organization|1.0.0"]},"identifier":[{"system":"http://nphies.sa/license/payer-license","value":"INS-FHIR"}],"active":true,"type":[{"coding":[{"system":"http://nphies.sa/terminology/CodeSystem/organization-type","code":"ins"}]}],"name":"Test Payer"}},{"fullUrl":"http://Provider_BaseURL.com.sa/Coverage/41","resource":{"resourceType":"Coverage","id":"41","meta":{"profile":["http://nphies.sa/fhir/ksa/nphies-fs/StructureDefinition/coverage|1.0.0"]},"identifier":[{"system":"http://pseudo-payer.com.sa/memberid","value":"43344334"}],"status":"active","type":{"coding":[{"system":"http://nphies.sa/terminology/CodeSystem/coverage-type","code":"PUBLICPOL","display":"public healthcare"}]},"policyHolder":{"reference":"http://Provider_BaseURL.com.sa/Patient/433434"},"subscriber":{"reference":"http://Provider_BaseURL.com.sa/Patient/433434"},"subscriberId":"43344334","beneficiary":{"reference":"http://Provider_BaseURL.com.sa/Patient/433434"},"relationship":{"coding":[{"system":"http://terminology.hl7.org/CodeSystem/subscriber-relationship","code":"self","display":"Self"}]},"period":{"start":"2023-10-12","end":"2024-10-12"},"payor":[{"reference":"http://Provider_BaseURL.com.sa/Organization/3"}],"class":[{"type":{"coding":[{"system":"http://terminology.hl7.org/CodeSystem/coverage-class","code":"plan"}]},"value":"135678597","name":"Insurance Plan A"}]}}]}