{"resourceType":"Bundle","id":"8870671f-aae4-4593-9cbf-124d5f140bd5","meta":{"profile":["http://nphies.sa/fhir/ksa/nphies-fs/StructureDefinition/bundle|1.0.0"]},"type":"message","timestamp":"2023-11-21T11:06:22.210+03:00","entry":[{"fullUrl":"http://Provider_BaseURL.com.sa/MessageHeader/e817413f-e25c-4e2a-a019-baab7922e875","resource":{"resourceType":"MessageHeader","id":"e817413f-e25c-4e2a-a019-baab7922e875","meta":{"profile":["http://nphies.sa/fhir/ksa/nphies-fs/StructureDefinition/message-header|1.0.0"]},"eventCoding":{"system":"http://nphies.sa/terminology/CodeSystem/ksa-message-events","code":"priorauth-request"},"destination":[{"endpoint":"http://pseudo-payer.com.sa","receiver":{"type":"Organization","identifier":{"system":"http://nphies.sa/license/payer-license","value":"INS-FHIR"}}}],"sender":{"type":"Organization","identifier":{"system":"http://nphies.sa/license/provider-license","value":"PR-FHIR"}},"source":{"endpoint":"http://Provider_BaseURL.com.sa"},"focus":[{"reference":"http://Provider_BaseURL.com.sa/Claim/1"}]}},{"fullUrl":"http://Provider_BaseURL.com.sa/Claim/1","resource":{"resourceType":"Claim","id":"1","meta":{"profile":["http://nphies.sa/fhir/ksa/nphies-fs/StructureDefinition/institutional-priorauth|1.0.0"]},"extension":[{"url":"http://nphies.sa/fhir/ksa/nphies-fs/StructureDefinition/extension-encounter","valueReference":{"reference":"http://Provider_BaseURL.com.sa/Encounter/1"}}],"identifier":[{"system":"http://Provider_BaseURL.com.sa/preauthorization","value":"3461666_Auth"}],"status":"active","type":{"coding":[{"system":"http://terminology.hl7.org/CodeSystem/claim-type","code":"institutional"}]},"subType":{"coding":[{"system":"http://nphies.sa/terminology/CodeSystem/claim-subtype","code":"ip"}]},"use":"preauthorization","patient":{"reference":"Patient/433434"},"created":"2023-11-21","insurer":{"reference":"http://Provider_BaseURL.com.sa/Organization/3"},"provider":{"reference":"http://Provider_BaseURL.com.sa/Organization/4"},"priority":{"coding":[{"system":"http://terminology.hl7.org/CodeSystem/processpriority","code":"stat"}]},"payee":{"type":{"coding":[{"system":"http://terminology.hl7.org/CodeSystem/payeetype","code":"provider"}]}},"careTeam":[{"sequence":1,"provider":{"reference":"http://Provider_BaseURL.com.sa/Practitioner/70"},"role":{"coding":[{"system":"http://terminology.hl7.org/CodeSystem/claimcareteamrole","code":"primary"}]},"qualification":{"coding":[{"system":"http://nphies.sa/terminology/CodeSystem/practice-codes","code":"01.00"}]}}],"supportingInfo":[{"sequence":1,"category":{"coding":[{"system":"http://nphies.sa/terminology/CodeSystem/claim-information-category","code":"vital-sign-systolic"}]},"valueQuantity":{"value":160,"system":"http://unitsofmeasure.org","code":"mm[Hg]"}},{"sequence":2,"category":{"coding":[{"system":"http://nphies.sa/terminology/CodeSystem/claim-information-category","code":"vital-sign-diastolic"}]},"valueQuantity":{"value":100,"system":"http://unitsofmeasure.org","code":"mm[Hg]"}},{"sequence":3,"category":{"coding":[{"system":"http://nphies.sa/terminology/CodeSystem/claim-information-category","code":"vital-sign-height"}]},"valueQuantity":{"value":170,"system":"http://unitsofmeasure.org","code":"cm"}},{"sequence":4,"category":{"coding":[{"system":"http://nphies.sa/terminology/CodeSystem/claim-information-category","code":"vital-sign-weight"}]},"valueQuantity":{"value":80,"system":"http://unitsofmeasure.org","code":"kg"}},{"sequence":5,"category":{"coding":[{"system":"http://nphies.sa/terminology/CodeSystem/claim-information-category","code":"pulse"}]},"valueQuantity":{"value":140,"system":"http://unitsofmeasure.org","code":"/min"}},{"sequence":6,"category":{"coding":[{"system":"http://nphies.sa/terminology/CodeSystem/claim-information-category","code":"temperature"}]},"valueQuantity":{"value":40,"system":"http://unitsofmeasure.org","code":"Cel"}},{"sequence":7,"category":{"coding":[{"system":"http://nphies.sa/terminology/CodeSystem/claim-information-category","code":"chief-complaint"}]},"code":{"text":"Fever"}},{"sequence":8,"category":{"coding":[{"system":"http://nphies.sa/terminology/CodeSystem/claim-information-category","code":"oxygen-saturation"}]},"valueQuantity":{"value":100,"system":"http://unitsofmeasure.org","code":"%"}},{"sequence":9,"category":{"coding":[{"system":"http://nphies.sa/terminology/CodeSystem/claim-information-category","code":"respiratory-rate"}]},"valueQuantity":{"value":70,"system":"http://unitsofmeasure.org","code":"/min"}},{"sequence":10,"category":{"coding":[{"system":"http://nphies.sa/terminology/CodeSystem/claim-information-category","code":"patient-history"}]},"valueString":"No systemic disease"},{"sequence":11,"category":{"coding":[{"system":"http://nphies.sa/terminology/CodeSystem/claim-information-category","code":"investigation-result"}]},"code":{"coding":[{"system":"http://nphies.sa/terminology/CodeSystem/investigation-result","code":"INP"}]}},{"sequence":12,"category":{"coding":[{"system":"http://nphies.sa/terminology/CodeSystem/claim-information-category","code":"treatment-plan"}]},"valueString":"IV NSAIDs and Antibiotic"},{"sequence":13,"category":{"coding":[{"system":"http://nphies.sa/terminology/CodeSystem/claim-information-category","code":"physical-examination"}]},"valueString":"temperature, abdominal tenderness, and hepatosplenomegaly"},{"sequence":14,"category":{"coding":[{"system":"http://nphies.sa/terminology/CodeSystem/claim-information-category","code":"history-of-present-illness"}]},"valueString":"No history"},{"sequence":15,"category":{"coding":[{"system":"http://nphies.sa/terminology/CodeSystem/claim-information-category","code":"estimated-Length-of-Stay"}]},"valueQuantity":{"value":14,"system":"http://unitsofmeasure.org","code":"d"}},{"sequence":16,"category":{"coding":[{"system":"http://nphies.sa/terminology/CodeSystem/claim-information-category","code":"reason-for-visit"}]},"code":{"coding":[{"system":"http://nphies.sa/terminology/CodeSystem/visit-reason","code":"referral"}]}}],"diagnosis":[{"sequence":1,"diagnosisCodeableConcept":{"coding":[{"system":"http://hl7.org/fhir/sid/icd-10-am","code":"I10"}]},"type":[{"coding":[{"system":"http://nphies.sa/terminology/CodeSystem/diagnosis-type","code":"principal"}]}],"onAdmission":{"coding":[{"system":"http://nphies.sa/terminology/CodeSystem/diagnosis-on-admission","code":"y"}]}}],"insurance":[{"sequence":1,"focal":true,"coverage":{"reference":"http://Provider_BaseURL.com.sa/Coverage/41"}}],"item":[{"extension":[{"url":"http://nphies.sa/fhir/ksa/nphies-fs/StructureDefinition/extension-package","valueBoolean":true},{"url":"http://nphies.sa/fhir/ksa/nphies-fs/StructureDefinition/extension-tax","valueMoney":{"value":10,"currency":"SAR"}},{"url":"http://nphies.sa/fhir/ksa/nphies-fs/StructureDefinition/extension-patient-share","valueMoney":{"value":0,"currency":"SAR"}},{"url":"http://nphies.sa/fhir/ksa/nphies-fs/StructureDefinition/extension-maternity","valueBoolean":false}],"sequence":1,"careTeamSequence":[1],"productOrService":{"coding":[{"system":"http://nphies.sa/terminology/CodeSystem/moh-category","code":"Q1001"}]},"servicedDate":"2023-11-21","quantity":{"value":1},"unitPrice":{"value":6.5,"currency":"SAR"},"net":{"value":16.5,"currency":"SAR"}}],"total":{"value":16.5,"currency":"SAR"}}},{"fullUrl":"http://Provider_BaseURL.com.sa/Organization/4","resource":{"resourceType":"Organization","id":"4","meta":{"profile":["http://nphies.sa/fhir/ksa/nphies-fs/StructureDefinition/provider-organization|1.0.0"]},"extension":[{"url":"http://nphies.sa/fhir/ksa/nphies-fs/StructureDefinition/extension-provider-type","valueCodeableConcept":{"coding":[{"system":"http://nphies.sa/terminology/CodeSystem/provider-type","code":"1","display":"Hospital"}]}}],"identifier":[{"system":"http://nphies.sa/license/provider-license","value":"PR-FHIR"}],"active":true,"type":[{"coding":[{"system":"http://nphies.sa/terminology/CodeSystem/organization-type","code":"prov"}]}],"name":"Test Provider"}},{"fullUrl":"http://Provider_BaseURL.com.sa/Patient/433434","resource":{"resourceType":"Patient","id":"433434","meta":{"profile":["http://nphies.sa/fhir/ksa/nphies-fs/StructureDefinition/patient|1.0.0"]},"extension":[{"url":"http://nphies.sa/fhir/ksa/nphies-fs/StructureDefinition/extension-nationality","valueCodeableConcept":{"coding":[{"system":"urn:iso:std:iso:3166","code":"SAU","display":"Saudi Arabia"}]}},{"url":"http://nphies.sa/fhir/ksa/nphies-fs/StructureDefinition/extension-occupation","valueCodeableConcept":{"coding":[{"system":"http://nphies.sa/terminology/CodeSystem/occupation","code":"student"}]}}],"identifier":[{"type":{"coding":[{"system":"http://terminology.hl7.org/CodeSystem/v2-0203","code":"NI"}]},"system":"http://nphies.sa/identifier/nationalid","value":"1787862623"}],"active":true,"name":[{"use":"official","text":"Abdullah Omer Alenazi","family":"Alenazi","given":["Abdullah","Omer","Alenazi"]}],"telecom":[{"system":"phone","value":"00966527898191"}],"gender":"male","_gender":{"extension":[{"url":"http://nphies.sa/fhir/ksa/nphies-fs/StructureDefinition/extension-ksa-administrative-gender","valueCodeableConcept":{"coding":[{"system":"http://nphies.sa/terminology/CodeSystem/ksa-administrative-gender","code":"male"}]}}]},"birthDate":"2000-10-12","maritalStatus":{"coding":[{"system":"http://terminology.hl7.org/CodeSystem/v3-MaritalStatus","code":"U"}]}}},{"fullUrl":"http://Provider_BaseURL.com.sa/Organization/3","resource":{"resourceType":"Organization","id":"3","meta":{"profile":["http://nphies.sa/fhir/ksa/nphies-fs/StructureDefinition/insurer-organization|1.0.0"]},"identifier":[{"system":"http://nphies.sa/license/payer-license","value":"INS-FHIR"}],"active":true,"type":[{"coding":[{"system":"http://nphies.sa/terminology/CodeSystem/organization-type","code":"ins"}]}],"name":"Test Payer"}},{"fullUrl":"http://Provider_BaseURL.com.sa/Coverage/41","resource":{"resourceType":"Coverage","id":"41","meta":{"profile":["http://nphies.sa/fhir/ksa/nphies-fs/StructureDefinition/coverage|1.0.0"]},"identifier":[{"system":"http://pseudo-payer.com.sa/memberid","value":"43344334"}],"status":"active","type":{"coding":[{"system":"http://nphies.sa/terminology/CodeSystem/coverage-type","code":"PUBLICPOL","display":"public healthcare"}]},"policyHolder":{"reference":"http://Provider_BaseURL.com.sa/Patient/433434"},"subscriber":{"reference":"http://Provider_BaseURL.com.sa/Patient/433434"},"subscriberId":"43344334","beneficiary":{"reference":"http://Provider_BaseURL.com.sa/Patient/433434"},"relationship":{"coding":[{"system":"http://terminology.hl7.org/CodeSystem/subscriber-relationship","code":"self","display":"Self"}]},"period":{"start":"2023-10-12","end":"2024-10-12"},"payor":[{"reference":"http://Provider_BaseURL.com.sa/Organization/3"}],"class":[{"type":{"coding":[{"system":"http://terminology.hl7.org/CodeSystem/coverage-class","code":"plan"}]},"value":"135678597","name":"Insurance Plan A"}]}},{"fullUrl":"http://Provider_BaseURL.com.sa/Encounter/1","resource":{"resourceType":"Encounter","id":"1","meta":{"profile":["http://nphies.sa/fhir/ksa/nphies-fs/StructureDefinition/encounter|1.0.0"]},"extension":[{"url":"http://nphies.sa/fhir/ksa/nphies-fs/StructureDefinition/extension-triageCategory","valueCodeableConcept":{"coding":[{"system":"http://nphies.sa/terminology/CodeSystem/triage-category","code":"U"}]}},{"url":"http://nphies.sa/fhir/ksa/nphies-fs/StructureDefinition/extension-triageDate","valueDateTime":"2023-11-21T09:38:00+03:00"},{"url":"http://nphies.sa/fhir/ksa/nphies-fs/StructureDefinition/extension-serviceEventType","valueCodeableConcept":{"coding":[{"system":"http://nphies.sa/terminology/CodeSystem/service-event-type","code":"ICSE"}]}}],"identifier":[{"system":"http://Provider_BaseURL.com.sa/encounter","value":"Encounter1"}],"status":"finished","class":{"system":"http://terminology.hl7.org/CodeSystem/v3-ActCode","code":"IMP","display":"inpatient"},"serviceType":{"coding":[{"system":"http://nphies.sa/terminology/CodeSystem/service-type","code":"sub-acute-care"}]},"subject":{"reference":"http://Provider_BaseURL.com.sa/Patient/433434"},"period":{"start":"2023-11-21T10:38:00+03:00"},"hospitalization":{"origin":{"reference":"http://Provider_BaseURL.com.sa/Organization/4"},"admitSource":{"coding":[{"system":"http://nphies.sa/terminology/CodeSystem/admit-source","code":"RECR"}]}},"serviceProvider":{"reference":"http://Provider_BaseURL.com.sa/Organization/4"}}},{"fullUrl":"http://Provider_BaseURL.com.sa/Practitioner/70","resource":{"resourceType":"Practitioner","id":"70","meta":{"profile":["http://nphies.sa/fhir/ksa/nphies-fs/StructureDefinition/practitioner|1.0.0"]},"identifier":[{"type":{"coding":[{"system":"http://terminology.hl7.org/CodeSystem/v2-0203","code":"MD"}]},"system":"http://nphies.sa/license/practitioner-license","value":"MDH-5700"}],"active":true,"name":[{"use":"official","text":"Omer Mohammed Al Tamimi","family":"Al Tamimi","given":["Omer","Mohammed"]}],"gender":"male"}}]}