{
  "resourceType": "Bundle",
  "id": "0880671f-aee4-4592-9cbf-124d5f140bd9",
  "meta": {
    "profile": [
      "http://nphies.sa/fhir/ksa/nphies-fs/StructureDefinition/bundle|1.0.0"
    ]
  },
  "type": "message",
  "timestamp": "2024-11-01T13:06:23.220+03:00",
  "entry": [
    {
      "fullUrl": "http://provider.com/MessageHeader/f817413f-e25c-4d2a-a019-baab7922e879",
      "resource": {
        "resourceType": "MessageHeader",
        "id": "f817413f-e25c-4d2a-a019-baab7922e879",
        "meta": {
          "profile": [
            "http://nphies.sa/fhir/ksa/nphies-fs/StructureDefinition/message-header|1.0.0"
          ]
        },
        "eventCoding": {
          "system": "http://nphies.sa/terminology/CodeSystem/ksa-message-events",
          "code": "priorauth-request"
        },
        "destination": [
          {
            "endpoint": "http://pseudo-payer.com.sa",
            "receiver": {
              "type": "Organization",
              "identifier": {
                "system": "http://nphies.sa/license/payer-license",
                "value": "INS-FHIR"
              }
            }
          }
        ],
        "sender": {
          "type": "Organization",
          "identifier": {
            "system": "http://nphies.sa/license/provider-license",
            "value": "PR-FHIR"
          }
        },
        "source": {
          "endpoint": "http://provider.com"
        },
        "focus": [
          {
            "reference": "http://provider.com/Claim/1"
          }
        ]
      }
    },
    {
      "fullUrl": "http://provider.com/Claim/1",
      "resource": {
        "resourceType": "Claim",
        "id": "1",
        "meta": {
          "profile": [
            "http://nphies.sa/fhir/ksa/nphies-fs/StructureDefinition/institutional-priorauth|1.0.0"
          ]
        },
        "extension": [
          {
            "url": "http://nphies.sa/fhir/ksa/nphies-fs/StructureDefinition/extension-encounter",
            "valueReference": {
              "reference": "http://provider.com/Encounter/1"
            }
          }
        ],
        "identifier": [
          {
            "system": "http://provider.com/preauthorization",
            "value": "34616670"
          }
        ],
        "status": "active",
        "type": {
          "coding": [
            {
              "system": "http://terminology.hl7.org/CodeSystem/claim-type",
              "code": "institutional"
            }
          ]
        },
        "subType": {
          "coding": [
            {
              "system": "http://nphies.sa/terminology/CodeSystem/claim-subtype",
              "code": "ip"
            }
          ]
        },
        "use": "preauthorization",
        "patient": {
          "reference": "Patient/433436"
        },
        "created": "2024-11-01",
        "insurer": {
          "reference": "http://provider.com/Organization/3"
        },
        "provider": {
          "reference": "http://provider.com/Organization/4"
        },
        "priority": {
          "coding": [
            {
              "system": "http://terminology.hl7.org/CodeSystem/processpriority",
              "code": "stat"
            }
          ]
        },
        "payee": {
          "type": {
            "coding": [
              {
                "system": "http://terminology.hl7.org/CodeSystem/payeetype",
                "code": "provider"
              }
            ]
          }
        },
        "careTeam": [
          {
            "sequence": 1,
            "provider": {
              "reference": "http://provider.com/Practitioner/70"
            },
            "role": {
              "coding": [
                {
                  "system": "http://terminology.hl7.org/CodeSystem/claimcareteamrole",
                  "code": "primary"
                }
              ]
            },
            "qualification": {
              "coding": [
                {
                  "system": "http://nphies.sa/terminology/CodeSystem/practice-codes",
                  "code": "04.00"
                }
              ]
            }
          }
        ],
        "supportingInfo": [
          {
            "sequence": 1,
            "category": {
              "coding": [
                {
                  "system": "http://nphies.sa/terminology/CodeSystem/claim-information-category",
                  "code": "vital-sign-systolic"
                }
              ]
            },
            "valueQuantity": {
              "value": 160,
              "system": "http://unitsofmeasure.org",
              "code": "mm[Hg]"
            }
          },
          {
            "sequence": 2,
            "category": {
              "coding": [
                {
                  "system": "http://nphies.sa/terminology/CodeSystem/claim-information-category",
                  "code": "vital-sign-diastolic"
                }
              ]
            },
            "valueQuantity": {
              "value": 100,
              "system": "http://unitsofmeasure.org",
              "code": "mm[Hg]"
            }
          },
          {
            "sequence": 3,
            "category": {
              "coding": [
                {
                  "system": "http://nphies.sa/terminology/CodeSystem/claim-information-category",
                  "code": "vital-sign-height"
                }
              ]
            },
            "valueQuantity": {
              "value": 170,
              "system": "http://unitsofmeasure.org",
              "code": "cm"
            }
          },
          {
            "sequence": 4,
            "category": {
              "coding": [
                {
                  "system": "http://nphies.sa/terminology/CodeSystem/claim-information-category",
                  "code": "vital-sign-weight"
                }
              ]
            },
            "valueQuantity": {
              "value": 80,
              "system": "http://unitsofmeasure.org",
              "code": "kg"
            }
          },
          {
            "sequence": 5,
            "category": {
              "coding": [
                {
                  "system": "http://nphies.sa/terminology/CodeSystem/claim-information-category",
                  "code": "pulse"
                }
              ]
            },
            "valueQuantity": {
              "value": 140,
              "system": "http://unitsofmeasure.org",
              "code": "/min"
            }
          },
          {
            "sequence": 6,
            "category": {
              "coding": [
                {
                  "system": "http://nphies.sa/terminology/CodeSystem/claim-information-category",
                  "code": "temperature"
                }
              ]
            },
            "valueQuantity": {
              "value": 40,
              "system": "http://unitsofmeasure.org",
              "code": "Cel"
            }
          },
          {
            "sequence": 7,
            "category": {
              "coding": [
                {
                  "system": "http://nphies.sa/terminology/CodeSystem/claim-information-category",
                  "code": "chief-complaint"
                }
              ]
            },
            "code": {
              "text": "Fever"
            }
          },
          {
            "sequence": 8,
            "category": {
              "coding": [
                {
                  "system": "http://nphies.sa/terminology/CodeSystem/claim-information-category",
                  "code": "oxygen-saturation"
                }
              ]
            },
            "valueQuantity": {
              "value": 100,
              "system": "http://unitsofmeasure.org",
              "code": "%"
            }
          },
          {
            "sequence": 9,
            "category": {
              "coding": [
                {
                  "system": "http://nphies.sa/terminology/CodeSystem/claim-information-category",
                  "code": "respiratory-rate"
                }
              ]
            },
            "valueQuantity": {
              "value": 20,
              "system": "http://unitsofmeasure.org",
              "code": "/min"
            }
          },
          {
            "sequence": 10,
            "category": {
              "coding": [
                {
                  "system": "http://nphies.sa/terminology/CodeSystem/claim-information-category",
                  "code": "patient-history"
                }
              ]
            },
            "valueString": "No systemic disease"
          },
          {
            "sequence": 11,
            "category": {
              "coding": [
                {
                  "system": "http://nphies.sa/terminology/CodeSystem/claim-information-category",
                  "code": "investigation-result"
                }
              ]
            },
            "code": {
              "coding": [
                {
                  "system": "http://nphies.sa/terminology/CodeSystem/investigation-result",
                  "code": "INP"
                }
              ]
            }
          },
          {
            "sequence": 12,
            "category": {
              "coding": [
                {
                  "system": "http://nphies.sa/terminology/CodeSystem/claim-information-category",
                  "code": "treatment-plan"
                }
              ]
            },
            "valueString": "IV NSAIDs and Antibiotic"
          },
          {
            "sequence": 13,
            "category": {
              "coding": [
                {
                  "system": "http://nphies.sa/terminology/CodeSystem/claim-information-category",
                  "code": "physical-examination"
                }
              ]
            },
            "valueString": "temperature, abdominal tenderness, and hepatosplenomegaly"
          },
          {
            "sequence": 14,
            "category": {
              "coding": [
                {
                  "system": "http://nphies.sa/terminology/CodeSystem/claim-information-category",
                  "code": "history-of-present-illness"
                }
              ]
            },
            "valueString": "No history"
          },
          {
            "sequence": 15,
            "category": {
              "coding": [
                {
                  "system": "http://nphies.sa/terminology/CodeSystem/claim-information-category",
                  "code": "attachment"
                }
              ]
            },
            "valueAttachment": {
              "contentType": "application/pdf",
              "data": "",
              "title": "0_IMG_20241001_0003_compressed.pdf",
              "creation": "2024-11-01"
            }
          },
          {
            "sequence": 16,
            "category": {
              "coding": [
                {
                  "system": "http://nphies.sa/terminology/CodeSystem/claim-information-category",
                  "code": "estimated-Length-of-Stay"
                }
              ]
            },
            "valueQuantity": {
              "value": 2,
              "system": "http://unitsofmeasure.org",
              "code": "d"
            }
          }
        ],
        "diagnosis": [
          {
            "sequence": 1,
            "diagnosisCodeableConcept": {
              "coding": [
                {
                  "system": "http://hl7.org/fhir/sid/icd-10-am",
                  "code": "A01.1",
                  "display": "Paratyphoid fever A"
                }
              ]
            },
            "type": [
              {
                "coding": [
                  {
                    "system": "http://nphies.sa/terminology/CodeSystem/diagnosis-type",
                    "code": "principal"
                  }
                ]
              }
            ],
            "onAdmission": {
              "coding": [
                  {
                      "system": "http://nphies.sa/terminology/CodeSystem/diagnosis-on-admission",
                      "code": "y"
                  }
              ]
            }
          }
        ],
        "insurance": [
          {
            "sequence": 1,
            "focal": true,
            "coverage": {
              "reference": "http://provider.com/Coverage/41"
            }
          }
        ],
        "item": [
          {
            "extension": [
              {
                "url": "http://nphies.sa/fhir/ksa/nphies-fs/StructureDefinition/extension-package",
                "valueBoolean": false
              },
              {
                "url": "http://nphies.sa/fhir/ksa/nphies-fs/StructureDefinition/extension-patient-share",
                "valueMoney": {
                  "value": 0,
                  "currency": "SAR"
                }
              },
              {
                "url": "http://nphies.sa/fhir/ksa/nphies-fs/StructureDefinition/extension-maternity",
                "valueBoolean": false
              }
            ],
            "sequence": 1,
            "careTeamSequence": [
              1
            ],
            "productOrService": {
              "coding": [
                {
                  "system": "http://nphies.sa/terminology/CodeSystem/moh-category",
                  "code": "IMCU",
                  "display": "Intermediate Intensive Care Unit, Adult and Pediatrics Esclusion as above"
                }
              ]
            },
            "servicedDate": "2024-11-01",
            "quantity": {
              "value": 1
            },
            "unitPrice": {
              "value": 6.5,
              "currency": "SAR"
            },
            "net": {
              "value": 6.5,
              "currency": "SAR"
            }
          }
        ],
        "total": {
          "value": 6.5,
          "currency": "SAR"
        }
      }
    },
    {
      "fullUrl": "http://provider.com/Organization/4",
      "resource": {
        "resourceType": "Organization",
        "id": "4",
        "meta": {
          "profile": [
            "http://nphies.sa/fhir/ksa/nphies-fs/StructureDefinition/provider-organization|1.0.0"
          ]
        },
        "extension": [
          {
            "url": "http://nphies.sa/fhir/ksa/nphies-fs/StructureDefinition/extension-provider-type",
            "valueCodeableConcept": {
              "coding": [
                {
                  "system": "http://nphies.sa/terminology/CodeSystem/provider-type",
                  "code": "1",
                  "display": "Hospital"
                }
              ]
            }
          }
        ],
        "identifier": [
          {
            "system": "http://nphies.sa/license/provider-license",
            "value": "PR-FHIR"
          }
        ],
        "active": true,
        "type": [
          {
            "coding": [
              {
                "system": "http://nphies.sa/terminology/CodeSystem/organization-type",
                "code": "prov"
              }
            ]
          }
        ],
        "name": "Test Provider"
      }
    },
    {
      "fullUrl": "http://provider.com/Patient/433436",
      "resource": {
        "resourceType": "Patient",
        "id": "433436",
        "meta": {
          "profile": [
            "http://nphies.sa/fhir/ksa/nphies-fs/StructureDefinition/patient|1.0.0"
          ]
        },
        "extension": [
          {
            "url": "http://nphies.sa/fhir/ksa/nphies-fs/StructureDefinition/extension-nationality",
            "valueCodeableConcept": {
              "coding": [
                {
                  "system": "urn:iso:std:iso:3166",
                  "code": "SAU",
                  "display": "Saudi Arabia"
                }
              ]
            }
          },
          {
            "url": "http://nphies.sa/fhir/ksa/nphies-fs/StructureDefinition/extension-occupation",
            "valueCodeableConcept": {
              "coding": [
                {
                  "system": "http://nphies.sa/terminology/CodeSystem/occupation",
                  "code": "student"
                }
              ]
            }
          }
        ],
        "identifier": [
          {
            "type": {
              "coding": [
                {
                  "system": "http://terminology.hl7.org/CodeSystem/v2-0203",
                  "code": "NI"
                }
              ]
            },
            "system": "http://nphies.sa/identifier/nationalid",
            "value": "1787862625"
          }
        ],
        "active": true,
        "name": [
          {
            "use": "official",
            "text": "Abdullah Omer Alenazi",
            "family": "Alenazi",
            "given": [
              "Abdullah",
              "Omer",
              "Alenazi"
            ]
          }
        ],
        "telecom": [
          {
            "system": "phone",
            "value": "00966527898191"
          }
        ],
        "gender": "male",
        "_gender": {
          "extension": [
            {
              "url": "http://nphies.sa/fhir/ksa/nphies-fs/StructureDefinition/extension-ksa-administrative-gender",
              "valueCodeableConcept": {
                "coding": [
                  {
                    "system": "http://nphies.sa/terminology/CodeSystem/ksa-administrative-gender",
                    "code": "male"
                  }
                ]
              }
            }
          ]
        },
        "birthDate": "2000-10-12",
        "maritalStatus": {
          "coding": [
            {
              "system": "http://terminology.hl7.org/CodeSystem/v3-MaritalStatus",
              "code": "U"
            }
          ]
        }
      }
    },
    {
      "fullUrl": "http://provider.com/Organization/3",
      "resource": {
        "resourceType": "Organization",
        "id": "3",
        "meta": {
          "profile": [
            "http://nphies.sa/fhir/ksa/nphies-fs/StructureDefinition/insurer-organization|1.0.0"
          ]
        },
        "identifier": [
          {
            "system": "http://nphies.sa/license/payer-license",
            "value": "0000000163"
          }
        ],
        "active": true,
        "type": [
          {
            "coding": [
              {
                "system": "http://nphies.sa/terminology/CodeSystem/organization-type",
                "code": "ins"
              }
            ]
          }
        ],
        "name": "Center for National health insurance"
      }
    },
    {
      "fullUrl": "http://provider.com/Coverage/41",
      "resource": {
        "resourceType": "Coverage",
        "id": "41",
        "meta": {
          "profile": [
            "http://nphies.sa/fhir/ksa/nphies-fs/StructureDefinition/coverage|1.0.0"
          ]
        },
        "identifier": [
          {
            "system": "http://pseudo-payer.com.sa/memberid",
            "value": "43344334"
          }
        ],
        "status": "active",
        "type": {
          "coding": [
            {
              "system": "http://nphies.sa/terminology/CodeSystem/coverage-type",
              "code": "PUBLICPOL",
              "display": "public healthcare"
            }
          ]
        },
        "policyHolder": {
          "reference": "http://provider.com/Organization/13"
        },
        "subscriber": {
          "reference": "http://provider.com/Patient/433436"
        },
        "subscriberId": "43344334",
        "beneficiary": {
          "reference": "http://provider.com/Patient/433436"
        },
        "relationship": {
          "coding": [
            {
              "system": "http://terminology.hl7.org/CodeSystem/subscriber-relationship",
              "code": "self",
              "display": "Self"
            }
          ]
        },
        "payor": [
          {
            "reference": "http://provider.com/Organization/3"
          }
        ],
        "class": [
          {
            "type": {
              "coding": [
                {
                  "system": "http://terminology.hl7.org/CodeSystem/coverage-class",
                  "code": "plan"
                }
              ]
            },
            "value": "135678597",
            "name": "Insurance Plan A"
          }
        ]
      }
    },
    {
      "fullUrl": "http://provider.com/Organization/13",
      "resource": {
        "resourceType": "Organization",
        "id": "13",
        "meta": {
          "profile": [
            "http://nphies.sa/fhir/ksa/nphies-fs/StructureDefinition/policyholder-organization|1.0.0"
          ]
        },
        "identifier": [
          {
            "system": "http://nphies.sa/identifier/organization",
            "value": "0000000163"
          }
        ],
        "active": true,
        "name": "Center for National health insurance"
      }
    },
    {
      "fullUrl": "http://provider.com/Encounter/1",
      "resource": {
        "resourceType": "Encounter",
        "id": "1",
        "meta": {
          "profile": [
            "http://nphies.sa/fhir/ksa/nphies-fs/StructureDefinition/encounter|1.0.0"
          ]
        },
        "extension": [
          {
            "url": "http://nphies.sa/fhir/ksa/nphies-fs/StructureDefinition/extension-emergencyArrivalCode",
            "valueCodeableConcept": {
                "coding": [
                    {
                        "system": "http://nphies.sa/terminology/CodeSystem/emergency-arrival-code",
                        "code": "GEMSA",
                        "display": "Ground EMS Ambulance"
                    }
                ]
            }
          },
          {
            "url": "http://nphies.sa/fhir/ksa/nphies-fs/StructureDefinition/extension-emergencyDepartmentDisposition",
            "valueCodeableConcept": {
                "coding": [
                    {
                        "system": "http://nphies.sa/terminology/CodeSystem/emergency-department-disposition",
                        "code": "AH",
                        "display": "Admitted to this hospital"
                    }
                ]
            }
          },
          {
            "url": "http://nphies.sa/fhir/ksa/nphies-fs/StructureDefinition/extension-triageCategory",
            "valueCodeableConcept": {
              "coding": [
                {
                  "system": "http://nphies.sa/terminology/CodeSystem/triage-category",
                  "code": "U"
                }
              ]
            }
          },
          {
            "url": "http://nphies.sa/fhir/ksa/nphies-fs/StructureDefinition/extension-triageDate",
            "valueDateTime": "2024-11-01T09:38:00+03:00"
          },
          {
            "url": "http://nphies.sa/fhir/ksa/nphies-fs/StructureDefinition/extension-serviceEventType",
            "valueCodeableConcept": {
              "coding": [
                {
                  "system": "http://nphies.sa/terminology/CodeSystem/service-event-type",
                  "code": "ICSE"
                }
              ]
            }
          }
        ],
        "identifier": [
          {
            "system": "http://provider.com/encounter",
            "value": "Encounter1"
          }
        ],
        "status": "finished",
        "class": {
          "system": "http://terminology.hl7.org/CodeSystem/v3-ActCode",
          "code": "ACUTE",
          "display": "emergency"
        },
        "serviceType": {
          "coding": [
            {
              "system": "http://nphies.sa/terminology/CodeSystem/service-type",
              "code": "acute-care"
            }
          ]
        },
        "subject": {
          "reference": "http://provider.com/Patient/433436"
        },
        "period": {
          "start": "2024-11-01T09:38:00+03:00"
        },
        "hospitalization": {
          "admitSource": {
              "coding": [
                  {
                      "system": "http://nphies.sa/terminology/CodeSystem/admit-source",
                      "code": "IA",
                      "display": "Immediate Admission"
                  }
              ]
          }
      },
        "serviceProvider": {
          "reference": "http://provider.com/Organization/4"
        }
      }
    },
    {
      "fullUrl": "http://provider.com/Practitioner/70",
      "resource": {
        "resourceType": "Practitioner",
        "id": "70",
        "meta": {
          "profile": [
            "http://nphies.sa/fhir/ksa/nphies-fs/StructureDefinition/practitioner|1.0.0"
          ]
        },
        "identifier": [
          {
            "type": {
              "coding": [
                {
                  "system": "http://terminology.hl7.org/CodeSystem/v2-0203",
                  "code": "MD"
                }
              ]
            },
            "system": "http://nphies.sa/license/practitioner-license",
            "value": "MDH-5700"
          }
        ],
        "active": true,
        "name": [
          {
            "use": "official",
            "text": "Omer Mohammed Al Tamimi",
            "family": "Al Tamimi",
            "given": [
              "Omer",
              "Mohammed"
            ]
          }
        ],
        "gender": "male"
      }
    }
  ]
}