{
    "resourceType": "Bundle",
    "id": "51079c5d-f69f-4391-85d5-76ed2d7c5541",
    "meta": {
        "profile": [
            "http://nphies.sa/fhir/ksa/nphies-fs/StructureDefinition/bundle|1.0.0"
        ]
    },
    "type": "message",
    "timestamp": "2023-11-21T10:06:23.22+03:00",
    "entry": [
        {
            "fullUrl": "urn:uuid:f09bf520-aecd-4248-9fcc-babbe68afd4e",
            "resource": {
                "resourceType": "MessageHeader",
                "id": "f09bf520-aecd-4248-9fcc-babbe68afd4e",
                "meta": {
                    "profile": [
                        "http://nphies.sa/fhir/ksa/nphies-fs/StructureDefinition/message-header|1.0.0"
                    ]
                },
                "eventCoding": {
                    "system": "http://nphies.sa/terminology/CodeSystem/ksa-message-events",
                    "code": "claim-request"
                },
                "destination": [
                    {
                        "endpoint": "http://10.1.24.10/",
                        "receiver": {
                            "type": "Organization",
                            "identifier": {
                                "system": "http://nphies.sa/license/payer-license",
                                "value": "7001463160"
                            }
                        }
                    }
                ],
                "sender": {
                    "type": "Organization",
                    "identifier": {
                        "system": "http://nphies.sa/license/provider-license",
                        "value": "PR-FHIR"
                    }
                },
                "source": {
                    "endpoint": "http://Provider_BaseURL.com.sa"
                },
                "focus": [
                    {
                        "reference": "http://Provider_BaseURL.com.sa/Claim/1"
                    }
                ]
            }
        },
        {
            "fullUrl": "http://Provider_BaseURL.com.sa/Claim/1",
            "resource": {
                "resourceType": "Claim",
                "id": "1",
                "meta": {
                    "profile": [
                        "http://nphies.sa/fhir/ksa/nphies-fs/StructureDefinition/institutional-claim|1.0.0"
                    ]
                },
                "extension": [
                    {
                        "url": "http://nphies.sa/fhir/ksa/nphies-fs/StructureDefinition/extension-encounter",
                        "valueReference": {
                            "reference": "http://Provider_BaseURL.com.sa/Encounter/1"
                        }
                    },
                    {
                        "url": "http://nphies.sa/fhir/ksa/nphies-fs/StructureDefinition/extension-priorauth-response",
                        "valueReference": {
                            "identifier": {
                                "system": "http://globemedsaudi.com/ClaimResponse/",
                                "value": "2634504"
                            }
                        }
                    },
                    {
                        "url": "http://nphies.sa/fhir/ksa/nphies-fs/StructureDefinition/extension-episode",
                        "valueIdentifier": {
                            "system": "http://Provider_BaseURL.com.sa/episode",
                            "value": "SGH_EpisodeID_20220120"
                        }
                    }
                ],
                "identifier": [
                    {
                        "system": "http://Provider_BaseURL.com.sa/claim",
                        "value": "583077"
                    }
                ],
                "status": "active",
                "type": {
                    "coding": [
                        {
                            "system": "http://terminology.hl7.org/CodeSystem/claim-type",
                            "code": "institutional"
                        }
                    ]
                },
                "subType": {
                    "coding": [
                        {
                            "system": "http://nphies.sa/terminology/CodeSystem/claim-subtype",
                            "code": "emr"
                        }
                    ]
                },
                "use": "claim",
                "patient": {
                    "reference": "Patient/433434"
                },
                "created": "2023-11-21",
                "insurer": {
                    "reference": "http://Provider_BaseURL.com.sa/Organization/3"
                },
                "provider": {
                    "reference": "http://Provider_BaseURL.com.sa/Organization/4"
                },
                "priority": {
                    "coding": [
                        {
                            "system": "http://terminology.hl7.org/CodeSystem/processpriority",
                            "code": "stat"
                        }
                    ]
                },
                "payee": {
                    "type": {
                        "coding": [
                            {
                                "system": "http://terminology.hl7.org/CodeSystem/payeetype",
                                "code": "provider"
                            }
                        ]
                    }
                },
                "careTeam": [
                    {
                        "sequence": 1,
                        "provider": {
                            "reference": "http://Provider_BaseURL.com.sa/Practitioner/70"
                        },
                        "role": {
                            "coding": [
                                {
                                    "system": "http://terminology.hl7.org/CodeSystem/claimcareteamrole",
                                    "code": "primary"
                                }
                            ]
                        },
                        "qualification": {
                            "coding": [
                                {
                                    "system": "http://nphies.sa/terminology/CodeSystem/practice-codes",
                                    "code": "01.00"
                                }
                            ]
                        }
                    }
                ],
                "diagnosis": [
                    {
                        "sequence": 1,
                        "onAdmission": {
                            "coding": [
                                {
                                    "system": "http://nphies.sa/terminology/CodeSystem/diagnosis-on-admission",
                                    "code": "y"
                                }
                            ]
                        },
                        "diagnosisCodeableConcept": {
                            "coding": [
                                {
                                    "system": "http://hl7.org/fhir/sid/icd-10-am",
                                    "code": "A01.1"
                                }
                            ]
                        },
                        "type": [
                            {
                                "coding": [
                                    {
                                        "system": "http://nphies.sa/terminology/CodeSystem/diagnosis-type",
                                        "code": "principal"
                                    }
                                ]
                            }
                        ]
                    }
                ],
                "insurance": [
                    {
                        "sequence": 1,
                        "focal": true,
                        "coverage": {
                            "reference": "http://Provider_BaseURL.com.sa/Coverage/41"
                        },
                         "preAuthRef": [
                            "34738270"
                        ]
                    }
                   
                ],
                "item": [
                    {
                        "sequence": 1,
                        "careTeamSequence": [
                            1
                        ],
                        "extension": [
                            {
                                "url": "http://nphies.sa/fhir/ksa/nphies-fs/StructureDefinition/extension-patientInvoice",
                                "valueIdentifier": {
                                    "system": "http://Provider_BaseURL.com.sa/patientInvoice",
                                    "value": "Invc-20220120-00456"
                                }
                            },
                            {
                                "url": "http://nphies.sa/fhir/ksa/nphies-fs/StructureDefinition/extension-tax",
                                "valueMoney": {
                                    "value": 10,
                                    "currency": "SAR"
                                }
                            },
                            {
                                "url": "http://nphies.sa/fhir/ksa/nphies-fs/StructureDefinition/extension-patient-share",
                                "valueMoney": {
                                    "value": 0,
                                    "currency": "SAR"
                                }
                            },
                            {
                                "url": "http://nphies.sa/fhir/ksa/nphies-fs/StructureDefinition/extension-package",
                                "valueBoolean": false
                            }
                        ],
                        "productOrService": {
                            "coding": [
                                {
                                    "system": "http://nphies.sa/terminology/CodeSystem/moh-category",
                                    "code": "Q1001"
                                }
                            ]
                        },
                        "servicedDate": "2023-11-21",
                        "quantity": {
                            "value": 1
                        },
                        "unitPrice": {
                            "value": 6.5,
                            "currency": "SAR"
                        },
                        "net": {
                            "value": 16.5,
                            "currency": "SAR"
                        }
                    }
                ],
                "total": {
                    "value": 16.5,
                    "currency": "SAR"
                }
            }
        },
        {
            "fullUrl": "http://Provider_BaseURL.com.sa/Organization/4",
            "resource": {
                "resourceType": "Organization",
                "id": "4",
                "meta": {
                    "profile": [
                        "http://nphies.sa/fhir/ksa/nphies-fs/StructureDefinition/provider-organization|1.0.0"
                    ]
                },
                "identifier": [
                    {
                        "system": "http://nphies.sa/license/provider-license",
                        "value": "PR-FHIR"
                    }
                ],
                "active": true,
                "type": [
                    {
                        "coding": [
                            {
                                "system": "http://nphies.sa/terminology/CodeSystem/organization-type",
                                "code": "prov"
                            }
                        ]
                    }
                ],
                "name": "Pesudo Provider"
            }
        },
        {
            "fullUrl": "http://Provider_BaseURL.com.sa/Patient/433434",
            "resource": {
                "resourceType": "Patient",
                "id": "433434",
                "meta": {
                    "profile": [
                        "http://nphies.sa/fhir/ksa/nphies-fs/StructureDefinition/patient|1.0.0"
                    ]
                },
                "extension": [
                    {
                        "url": "http://nphies.sa/fhir/ksa/nphies-fs/StructureDefinition/extension-nationality",
                        "valueCodeableConcept": {
                            "coding": [
                                {
                                    "system": "urn:iso:std:iso:3166",
                                    "code": "SAU",
                                    "display": "Saudi Arabia"
                                }
                            ]
                        }
                    }
                ],
                "identifier": [
                    {
                        "type": {
                            "coding": [
                                {
                                    "system": "http://terminology.hl7.org/CodeSystem/v2-0203",
                                    "code": "NI"
                                }
                            ]
                        },
                        "system": "http://nphies.sa/identifier/nationalid",
                        "value": "1787862623"
                    }
                ],
                "active": true,
                "name": [
                    {
                        "use": "official",
                        "text": "Abdullah Omer Alenazi",
                        "family": "Alenazi",
                        "given": [
                            "Abdullah",
                            "Omer",
                            "Alenazi"
                        ]
                    }
                ],
                "telecom": [
                    {
                        "system": "phone",
                        "value": "00966527898191"
                    }
                ],
                "gender": "male",
                "_gender": {
                    "extension": [
                        {
                            "url": "http://nphies.sa/fhir/ksa/nphies-fs/StructureDefinition/extension-ksa-administrative-gender",
                            "valueCodeableConcept": {
                                "coding": [
                                    {
                                        "system": "http://nphies.sa/terminology/CodeSystem/ksa-administrative-gender",
                                        "code": "male"
                                    }
                                ]
                            }
                        }
                    ]
                },
                "birthDate": "2000-10-12"
            }
        },
        {
            "fullUrl": "http://Provider_BaseURL.com.sa/Organization/3",
            "resource": {
                "resourceType": "Organization",
                "id": "3",
                "meta": {
                    "profile": [
                        "http://nphies.sa/fhir/ksa/nphies-fs/StructureDefinition/insurer-organization|1.0.0"
                    ]
                },
                "identifier": [
                    {
                        "system": "http://nphies.sa/license/payer-license",
                        "value": "0000000163"
                    }
                ],
                "active": true,
                "type": [
                    {
                        "coding": [
                            {
                                "system": "http://nphies.sa/terminology/CodeSystem/organization-type",
                                "code": "ins"
                            }
                        ]
                    }
                ],
                "name": "Center for National health insurance"
            }
        },
        {
            "fullUrl": "http://Provider_BaseURL.com.sa/Coverage/41",
            "resource": {
                "resourceType": "Coverage",
                "id": "41",
                "meta": {
                    "profile": [
                        "http://nphies.sa/fhir/ksa/nphies-fs/StructureDefinition/coverage|1.0.0"
                    ]
                },
                "identifier": [
                    {
                        "system": "http://payer.com/memberid",
                        "value": "43344334"
                    }
                ],
                "status": "active",
                "type": {
                    "coding": [
                        {
                            "system": "http://nphies.sa/terminology/CodeSystem/coverage-type",
                            "code": "PUBLICPOL",
                            "display": "public healthcare"
                        }
                    ]
                },
                "subscriber": {
                    "reference": "http://Provider_BaseURL.com.sa/Patient/433434"
                },
                "subscriberId": "43344334",
                "beneficiary": {
                    "reference": "http://Provider_BaseURL.com.sa/Patient/433434"
                },
                "relationship": {
                    "coding": [
                        {
                            "system": "http://terminology.hl7.org/CodeSystem/subscriber-relationship",
                            "code": "self",
                            "display": "Self"
                        }
                    ]
                },
                "period": {
                    "start": "2023-10-12",
                    "end": "2024-10-12"
                },
                "payor": [
                    {
                        "reference": "http://Provider_BaseURL.com.sa/Organization/3"
                    }
                ]
            }
        },
        {
            "fullUrl": "http://Provider_BaseURL.com.sa/Encounter/1",
            "resource": {
                "resourceType": "Encounter",
                "id": "1",
                "meta": {
                    "profile": [
                        "http://nphies.sa/fhir/ksa/nphies-fs/StructureDefinition/encounter|1.0.0"
                    ]
                },
                "hospitalization": {
                    "origin": {
                        "reference": "http://Provider_BaseURL.com.sa/Organization/4"
                    },
                    "admitSource": {
                        "coding": [
                            {
                                "system": "http://nphies.sa/terminology/CodeSystem/encounter-admit-source",
                                "code": "WKIN"
                            }
                        ]
                    }
                },
                "identifier": [
                    {
                        "system": "http://Provider_BaseURL.com.sa/encounter",
                        "value": "Encounter1"
                    }
                ],
                "status": "finished",
                "class": {
                    "system": "http://terminology.hl7.org/CodeSystem/v3-ActCode",
                    "code": "EMER",
                    "display": "Emergency"
                },
                "serviceType": {
                    "coding": [
                        {
                            "system": "http://nphies.sa/terminology/CodeSystem/service-type",
                            "code": "237"
                        }
                    ]
                },
                "subject": {
                    "reference": "http://Provider_BaseURL.com.sa/Patient/433434"
                },
                "period": {
                    "start": "2023-11-21",
                    "end": "2023-11-21"
                },
                "serviceProvider": {
                    "reference": "http://Provider_BaseURL.com.sa/Organization/4"
                }
            }
        },
        {
            "fullUrl": "http://Provider_BaseURL.com.sa/Practitioner/70",
            "resource": {
                "resourceType": "Practitioner",
                "id": "70",
                "meta": {
                    "profile": [
                        "http://nphies.sa/fhir/ksa/nphies-fs/StructureDefinition/practitioner|1.0.0"
                    ]
                },
                "identifier": [
                    {
                        "type": {
                            "coding": [
                                {
                                    "system": "http://terminology.hl7.org/CodeSystem/v2-0203",
                                    "code": "MD"
                                }
                            ]
                        },
                        "system": "http://nphies.sa/license/practitioner-license",
                        "value": "MDH-5700"
                    }
                ],
                "active": true,
                "name": [
                    {
                        "use": "official",
                        "text": "Omer Mohammed Al Tamimi",
                        "family": "Al Tamimi",
                        "given": [
                            "Omer",
                            "Mohammed"
                        ]
                    }
                ],
                "gender": "male"
            }
        }
    ]
}